RECORDING_SESSION_LABEL	INDEX	ACCURACY	Session_Name_	TEST_RESPONSE	Trial_Index_	Trial_Recycled_	__REACTION_TIME__1	base_file	correct_response	degredation	file_1	file_2	file_3	file_4	image_number	insert	old_new	probe_file	probe_version	repeated	version
sp_jj_jm	1	1	sp_jj_jm	1	1	False	1366	062a.jpg	1	0	UNDEFINED	UNDEFINED	UNDEFINED	UNDEFINED	62	3	Old	062a.jpg	a	0	a
sp_jj_jm	2	1	sp_jj_jm	1	2	False	933	042a.jpg	1	0	042a.jpg	042a.jpg	042a.jpg	042a.jpg	42	NA	Old	042a.jpg	a	1	a
sp_jj_jm	3	0	sp_jj_jm	1	3	False	1312	029b.jpg	2	50	029b_50_1.png	029b_50_2.png	029b_50_3.png	029b_50_4.png	29	NA	New	029a.jpg	a	1	b
sp_jj_jm	4	1	sp_jj_jm	1	4	False	1176	001b.jpg	1	75	001b_75_1.png	001b_75_2.png	001b_75_3.png	001b_75_4.png	1	NA	Old	001b.jpg	b	1	b
sp_jj_jm	5	1	sp_jj_jm	1	5	False	1061	022a.jpg	1	0	.	.	.	.	22	3	Old	022a.jpg	a	0	a
sp_jj_jm	6	0	sp_jj_jm	1	6	False	1206	044b.jpg	2	75	044b_75_1.png	044b_75_2.png	044b_75_3.png	044b_75_4.png	44	NA	New	044a.jpg	a	1	b
sp_jj_jm	7	1	sp_jj_jm	2	7	False	1179	039b.jpg	2	50	039b_50_1.png	039b_50_2.png	039b_50_3.png	039b_50_4.png	39	NA	New	039a.jpg	a	1	b
sp_jj_jm	8	0	sp_jj_jm	1	8	False	1047	069a.jpg	2	25	069a_25_1.png	069a_25_2.png	069a_25_3.png	069a_25_4.png	69	NA	New	069b.jpg	b	1	a
sp_jj_jm	9	0	sp_jj_jm	1	9	False	1152	086b.jpg	2	75	086b_75_1.png	086b_75_2.png	086b_75_3.png	086b_75_4.png	86	NA	New	086a.jpg	a	1	b
sp_jj_jm	10	1	sp_jj_jm	1	10	False	1129	008a.jpg	1	0	008a.jpg	008a.jpg	008a.jpg	008a.jpg	8	NA	Old	008a.jpg	a	1	a
sp_jj_jm	11	0	sp_jj_jm	2	11	False	1023	049b.jpg	1	0	.	.	.	.	49	2	Old	049b.jpg	b	0	b
sp_jj_jm	12	0	sp_jj_jm	1	12	False	1085	077b.jpg	2	75	077b_75_1.png	077b_75_2.png	077b_75_3.png	077b_75_4.png	77	NA	New	077a.jpg	a	1	b
sp_jj_jm	13	1	sp_jj_jm	1	13	False	993	093a.jpg	1	50	093a_50_1.png	093a_50_2.png	093a_50_3.png	093a_50_4.png	93	NA	Old	093a.jpg	a	1	a
sp_jj_jm	14	1	sp_jj_jm	1	14	False	926	045a.jpg	1	50	045a_50_1.png	045a_50_2.png	045a_50_3.png	045a_50_4.png	45	NA	Old	045a.jpg	a	1	a
sp_jj_jm	15	1	sp_jj_jm	1	15	False	1051	021a.jpg	1	25	021a_25_1.png	021a_25_2.png	021a_25_3.png	021a_25_4.png	21	NA	Old	021a.jpg	a	1	a
sp_jj_jm	16	0	sp_jj_jm	2	16	False	924	047b.jpg	1	50	047b_50_1.png	047b_50_2.png	047b_50_3.png	047b_50_4.png	47	NA	Old	047b.jpg	b	1	b
sp_jj_jm	17	1	sp_jj_jm	1	17	False	943	078a.jpg	1	0	.	.	.	.	78	4	Old	078a.jpg	a	0	a
sp_jj_jm	18	1	sp_jj_jm	2	18	False	1480	082b.jpg	2	75	082b_75_1.png	082b_75_2.png	082b_75_3.png	082b_75_4.png	82	NA	New	082a.jpg	a	1	b
sp_jj_jm	19	1	sp_jj_jm	2	19	False	1016	098a.jpg	2	0	098a.jpg	098a.jpg	098a.jpg	098a.jpg	98	NA	New	098b.jpg	b	1	a
sp_jj_jm	20	0	sp_jj_jm	2	20	False	949	053b.jpg	1	50	053b_50_1.png	053b_50_2.png	053b_50_3.png	053b_50_4.png	53	NA	Old	053b.jpg	b	1	b
sp_jj_jm	21	1	sp_jj_jm	1	21	False	1188	036b.jpg	1	0	036b.jpg	036b.jpg	036b.jpg	036b.jpg	36	NA	Old	036b.jpg	b	1	b
sp_jj_jm	22	0	sp_jj_jm	2	22	False	1013	081b.jpg	1	25	081b_25_1.png	081b_25_2.png	081b_25_3.png	081b_25_4.png	81	NA	Old	081b.jpg	b	1	b
sp_jj_jm	23	1	sp_jj_jm	2	23	False	944	016b.jpg	2	0	.	.	.	.	16	2	New	016a.jpg	a	0	b
sp_jj_jm	24	1	sp_jj_jm	2	24	False	1064	018a.jpg	2	50	018a_50_1.png	018a_50_2.png	018a_50_3.png	018a_50_4.png	18	NA	New	018b.jpg	b	1	a
sp_jj_jm	25	1	sp_jj_jm	1	25	False	975	015a.jpg	1	0	015a.jpg	015a.jpg	015a.jpg	015a.jpg	15	NA	Old	015a.jpg	a	1	a
sp_jj_jm	26	1	sp_jj_jm	2	26	False	948	034b.jpg	2	25	034b_25_1.png	034b_25_2.png	034b_25_3.png	034b_25_4.png	34	NA	New	034a.jpg	a	1	b
sp_jj_jm	27	1	sp_jj_jm	2	27	False	868	043a.jpg	2	75	043a_75_1.png	043a_75_2.png	043a_75_3.png	043a_75_4.png	43	NA	New	043b.jpg	b	1	a
sp_jj_jm	28	1	sp_jj_jm	1	28	False	925	020a.jpg	1	0	.	.	.	.	20	1	Old	020a.jpg	a	0	a
sp_jj_jm	29	1	sp_jj_jm	2	29	False	821	002a.jpg	2	50	002a_50_1.png	002a_50_2.png	002a_50_3.png	002a_50_4.png	2	NA	New	002b.jpg	b	1	a
sp_jj_jm	30	1	sp_jj_jm	2	30	False	904	080a.jpg	2	25	080a_25_1.png	080a_25_2.png	080a_25_3.png	080a_25_4.png	80	NA	New	080b.jpg	b	1	a
sp_jj_jm	31	0	sp_jj_jm	2	31	False	1126	085b.jpg	1	50	085b_50_1.png	085b_50_2.png	085b_50_3.png	085b_50_4.png	85	NA	Old	085b.jpg	b	1	b
sp_jj_jm	32	0	sp_jj_jm	2	32	False	841	037b.jpg	1	75	037b_75_1.png	037b_75_2.png	037b_75_3.png	037b_75_4.png	37	NA	Old	037b.jpg	b	1	b
sp_jj_jm	33	0	sp_jj_jm	2	33	False	916	092b.jpg	1	75	092b_75_1.png	092b_75_2.png	092b_75_3.png	092b_75_4.png	92	NA	Old	092b.jpg	b	1	b
sp_jj_jm	34	1	sp_jj_jm	2	34	False	1142	028a.jpg	2	75	028a_75_1.png	028a_75_2.png	028a_75_3.png	028a_75_4.png	28	NA	New	028b.jpg	b	1	a
sp_jj_jm	35	1	sp_jj_jm	2	35	False	1158	100a.jpg	2	50	100a_50_1.png	100a_50_2.png	100a_50_3.png	100a_50_4.png	100	NA	New	100b.jpg	b	1	a
sp_jj_jm	36	1	sp_jj_jm	1	36	False	952	074b.jpg	1	25	074b_25_1.png	074b_25_2.png	074b_25_3.png	074b_25_4.png	74	NA	Old	074b.jpg	b	1	b
sp_jj_jm	37	1	sp_jj_jm	2	37	False	891	087b.jpg	2	50	087b_50_1.png	087b_50_2.png	087b_50_3.png	087b_50_4.png	87	NA	New	087a.jpg	a	1	b
sp_jj_jm	38	0	sp_jj_jm	1	38	False	1261	072b.jpg	2	75	072b_75_1.png	072b_75_2.png	072b_75_3.png	072b_75_4.png	72	NA	New	072a.jpg	a	1	b
sp_jj_jm	39	1	sp_jj_jm	1	39	False	1129	095a.jpg	1	0	095a.jpg	095a.jpg	095a.jpg	095a.jpg	95	NA	Old	095a.jpg	a	1	a
sp_jj_jm	40	1	sp_jj_jm	1	40	False	1095	075b.jpg	1	0	.	.	.	.	75	1	Old	075b.jpg	b	0	b
sp_jj_jm	41	1	sp_jj_jm	2	41	False	973	014a.jpg	2	75	014a_75_1.png	014a_75_2.png	014a_75_3.png	014a_75_4.png	14	NA	New	014b.jpg	b	1	a
sp_jj_jm	42	1	sp_jj_jm	2	42	False	1225	009b.jpg	2	50	009b_50_1.png	009b_50_2.png	009b_50_3.png	009b_50_4.png	9	NA	New	009a.jpg	a	1	b
sp_jj_jm	43	1	sp_jj_jm	1	43	False	943	060a.jpg	1	75	060a_75_1.png	060a_75_2.png	060a_75_3.png	060a_75_4.png	60	NA	Old	060a.jpg	a	1	a
sp_jj_jm	44	1	sp_jj_jm	1	44	False	925	076b.jpg	1	75	076b_75_1.png	076b_75_2.png	076b_75_3.png	076b_75_4.png	76	NA	Old	076b.jpg	b	1	b
sp_jj_jm	45	1	sp_jj_jm	2	45	False	788	041a.jpg	2	0	.	.	.	.	41	3	New	041b.jpg	b	0	a
sp_jj_jm	46	1	sp_jj_jm	1	46	False	930	059b.jpg	1	25	059b_25_1.png	059b_25_2.png	059b_25_3.png	059b_25_4.png	59	NA	Old	059b.jpg	b	1	b
sp_jj_jm	47	1	sp_jj_jm	2	47	False	841	051a.jpg	2	0	.	.	.	.	51	1	New	051b.jpg	b	0	a
sp_jj_jm	48	0	sp_jj_jm	1	48	False	870	068b.jpg	2	75	068b_75_1.png	068b_75_2.png	068b_75_3.png	068b_75_4.png	68	NA	New	068a.jpg	a	1	b
sp_jj_jm	49	1	sp_jj_jm	2	49	False	888	031b.jpg	2	0	031b.jpg	031b.jpg	031b.jpg	031b.jpg	31	NA	New	031a.jpg	a	1	b
sp_jj_jm	50	0	sp_jj_jm	1	50	False	785	030a.jpg	2	0	030a.jpg	030a.jpg	030a.jpg	030a.jpg	30	NA	New	030b.jpg	b	1	a
sp_jj_jm	51	1	sp_jj_jm	2	51	False	779	024a.jpg	2	0	024a.jpg	024a.jpg	024a.jpg	024a.jpg	24	NA	New	024b.jpg	b	1	a
sp_jj_jm	52	1	sp_jj_jm	1	52	False	814	066a.jpg	1	0	.	.	.	.	66	2	Old	066a.jpg	a	0	a
sp_jj_jm	53	1	sp_jj_jm	1	53	False	749	094b.jpg	1	75	094b_75_1.png	094b_75_2.png	094b_75_3.png	094b_75_4.png	94	NA	Old	094b.jpg	b	1	b
sp_jj_jm	54	1	sp_jj_jm	1	54	False	794	035a.jpg	1	25	035a_25_1.png	035a_25_2.png	035a_25_3.png	035a_25_4.png	35	NA	Old	035a.jpg	a	1	a
sp_jj_jm	55	1	sp_jj_jm	2	55	False	710	091b.jpg	2	0	.	.	.	.	91	2	New	091a.jpg	a	0	b
sp_jj_jm	56	1	sp_jj_jm	1	56	False	889	058b.jpg	1	25	058b_25_1.png	058b_25_2.png	058b_25_3.png	058b_25_4.png	58	NA	Old	058b.jpg	b	1	b
sp_jj_jm	57	0	sp_jj_jm	1	57	False	761	038a.jpg	2	25	038a_25_1.png	038a_25_2.png	038a_25_3.png	038a_25_4.png	38	NA	New	038b.jpg	b	1	a
sp_jj_jm	58	1	sp_jj_jm	1	58	False	855	013a.jpg	1	50	013a_50_1.png	013a_50_2.png	013a_50_3.png	013a_50_4.png	13	NA	Old	013a.jpg	a	1	a
sp_jj_jm	59	1	sp_jj_jm	1	59	False	936	096b.jpg	1	0	096b.jpg	096b.jpg	096b.jpg	096b.jpg	96	NA	Old	096b.jpg	b	1	b
sp_jj_jm	60	1	sp_jj_jm	2	60	False	773	026b.jpg	2	25	026b_25_1.png	026b_25_2.png	026b_25_3.png	026b_25_4.png	26	NA	New	026a.jpg	a	1	b
sp_jj_jm	61	0	sp_jj_jm	1	61	False	889	017b.jpg	2	25	017b_25_1.png	017b_25_2.png	017b_25_3.png	017b_25_4.png	17	NA	New	017a.jpg	a	1	b
sp_jj_jm	62	1	sp_jj_jm	2	62	False	833	050a.jpg	2	50	050a_50_1.png	050a_50_2.png	050a_50_3.png	050a_50_4.png	50	NA	New	050b.jpg	b	1	a
sp_jj_jm	63	1	sp_jj_jm	2	63	False	940	061b.jpg	2	0	061b.jpg	061b.jpg	061b.jpg	061b.jpg	61	NA	New	061a.jpg	a	1	b
sp_jj_jm	64	1	sp_jj_jm	1	64	False	849	046b.jpg	1	25	046b_25_1.png	046b_25_2.png	046b_25_3.png	046b_25_4.png	46	NA	Old	046b.jpg	b	1	b
sp_jj_jm	65	1	sp_jj_jm	1	65	False	925	003b.jpg	1	0	003b.jpg	003b.jpg	003b.jpg	003b.jpg	3	NA	Old	003b.jpg	b	1	b
sp_jj_jm	66	1	sp_jj_jm	1	66	False	802	040a.jpg	1	50	040a_50_1.png	040a_50_2.png	040a_50_3.png	040a_50_4.png	40	NA	Old	040a.jpg	a	1	a
sp_jj_jm	67	1	sp_jj_jm	1	67	False	902	083a.jpg	1	0	083a.jpg	083a.jpg	083a.jpg	083a.jpg	83	NA	Old	083a.jpg	a	1	a
sp_jj_jm	68	0	sp_jj_jm	1	68	False	978	079a.jpg	2	50	079a_50_1.png	079a_50_2.png	079a_50_3.png	079a_50_4.png	79	NA	New	079b.jpg	b	1	a
sp_jj_jm	69	1	sp_jj_jm	2	69	False	863	097a.jpg	2	25	097a_25_1.png	097a_25_2.png	097a_25_3.png	097a_25_4.png	97	NA	New	097b.jpg	b	1	a
sp_jj_jm	70	1	sp_jj_jm	1	70	False	929	032b.jpg	1	50	032b_50_1.png	032b_50_2.png	032b_50_3.png	032b_50_4.png	32	NA	Old	032b.jpg	b	1	b
sp_jj_jm	71	1	sp_jj_jm	2	71	False	1044	023b.jpg	2	0	.	.	.	.	23	4	New	023a.jpg	a	0	b
sp_jj_jm	72	1	sp_jj_jm	2	72	False	1121	005a.jpg	2	50	005a_50_1.png	005a_50_2.png	005a_50_3.png	005a_50_4.png	5	NA	New	005b.jpg	b	1	a
sp_jj_jm	73	0	sp_jj_jm	2	73	False	1077	055b.jpg	1	0	.	.	.	.	55	3	Old	055b.jpg	b	0	b
sp_jj_jm	74	0	sp_jj_jm	1	74	False	849	011b.jpg	2	25	011b_25_1.png	011b_25_2.png	011b_25_3.png	011b_25_4.png	11	NA	New	011a.jpg	a	1	b
sp_jj_jm	75	1	sp_jj_jm	2	75	False	1275	099b.jpg	2	0	099b.jpg	099b.jpg	099b.jpg	099b.jpg	99	NA	New	099a.jpg	a	1	b
sp_jj_jm	76	1	sp_jj_jm	2	76	False	896	012a.jpg	2	0	.	.	.	.	12	4	New	012b.jpg	b	0	a
sp_jj_jm	77	1	sp_jj_jm	1	77	False	907	057b.jpg	1	0	057b.jpg	057b.jpg	057b.jpg	057b.jpg	57	NA	Old	057b.jpg	b	1	b
sp_jj_jm	78	1	sp_jj_jm	1	78	False	1084	019b.jpg	1	75	019b_75_1.png	019b_75_2.png	019b_75_3.png	019b_75_4.png	19	NA	Old	019b.jpg	b	1	b
sp_jj_jm	79	1	sp_jj_jm	1	79	False	918	071a.jpg	1	50	071a_50_1.png	071a_50_2.png	071a_50_3.png	071a_50_4.png	71	NA	Old	071a.jpg	a	1	a
sp_jj_jm	80	0	sp_jj_jm	2	80	False	840	033a.jpg	1	75	033a_75_1.png	033a_75_2.png	033a_75_3.png	033a_75_4.png	33	NA	Old	033a.jpg	a	1	a
sp_jj_jm	81	0	sp_jj_jm	2	81	False	1045	004a.jpg	1	25	004a_25_1.png	004a_25_2.png	004a_25_3.png	004a_25_4.png	4	NA	Old	004a.jpg	a	1	a
sp_jj_jm	82	1	sp_jj_jm	2	82	False	947	010a.jpg	2	0	010a.jpg	010a.jpg	010a.jpg	010a.jpg	10	NA	New	010b.jpg	b	1	a
sp_jj_jm	83	1	sp_jj_jm	2	83	False	868	065a.jpg	2	0	.	.	.	.	65	2	New	065b.jpg	b	0	a
sp_jj_jm	84	0	sp_jj_jm	2	84	False	915	073b.jpg	1	0	.	.	.	.	73	1	Old	073b.jpg	b	0	b
sp_jj_jm	85	1	sp_jj_jm	2	85	False	744	090b.jpg	2	0	.	.	.	.	90	4	New	090a.jpg	a	0	b
sp_jj_jm	86	0	sp_jj_jm	2	86	False	886	054a.jpg	1	0	.	.	.	.	54	1	Old	054a.jpg	a	0	a
sp_jj_jm	87	0	sp_jj_jm	1	87	False	929	006a.jpg	2	25	006a_25_1.png	006a_25_2.png	006a_25_3.png	006a_25_4.png	6	NA	New	006b.jpg	b	1	a
sp_jj_jm	88	1	sp_jj_jm	2	88	False	835	067a.jpg	2	0	067a.jpg	067a.jpg	067a.jpg	067a.jpg	67	NA	New	067b.jpg	b	1	a
sp_jj_jm	89	1	sp_jj_jm	1	89	False	826	084b.jpg	1	75	084b_75_1.png	084b_75_2.png	084b_75_3.png	084b_75_4.png	84	NA	Old	084b.jpg	b	1	b
sp_jj_jm	90	1	sp_jj_jm	1	90	False	1060	089b.jpg	1	0	089b.jpg	089b.jpg	089b.jpg	089b.jpg	89	NA	Old	089b.jpg	b	1	b
sp_jj_jm	91	0	sp_jj_jm	2	91	False	865	025a.jpg	1	25	025a_25_1.png	025a_25_2.png	025a_25_3.png	025a_25_4.png	25	NA	Old	025a.jpg	a	1	a
sp_jj_jm	92	0	sp_jj_jm	1	92	False	909	056a.jpg	2	0	.	.	.	.	56	4	New	056b.jpg	b	0	a
sp_jj_jm	93	1	sp_jj_jm	1	93	False	824	027b.jpg	1	25	027b_25_1.png	027b_25_2.png	027b_25_3.png	027b_25_4.png	27	NA	Old	027b.jpg	b	1	b
sp_jj_jm	94	1	sp_jj_jm	2	94	False	828	070a.jpg	2	0	.	.	.	.	70	3	New	070b.jpg	b	0	a
sp_jj_jm	95	1	sp_jj_jm	1	95	False	924	064b.jpg	1	50	064b_50_1.png	064b_50_2.png	064b_50_3.png	064b_50_4.png	64	NA	Old	064b.jpg	b	1	b
sp_jj_jm	96	1	sp_jj_jm	1	96	False	911	048a.jpg	1	75	048a_75_1.png	048a_75_2.png	048a_75_3.png	048a_75_4.png	48	NA	Old	048a.jpg	a	1	a
sp_jj_jm	97	1	sp_jj_jm	2	97	False	831	063a.jpg	2	0	063a.jpg	063a.jpg	063a.jpg	063a.jpg	63	NA	New	063b.jpg	b	1	a
sp_jj_jm	98	1	sp_jj_jm	2	98	False	1024	052b.jpg	2	75	052b_75_1.png	052b_75_2.png	052b_75_3.png	052b_75_4.png	52	NA	New	052a.jpg	a	1	b
sp_jj_jm	99	0	sp_jj_jm	1	99	False	836	088a.jpg	2	25	088a_25_1.png	088a_25_2.png	088a_25_3.png	088a_25_4.png	88	NA	New	088b.jpg	b	1	a
sp_jj_jm	100	1	sp_jj_jm	2	100	False	849	007b.jpg	2	0	007b.jpg	007b.jpg	007b.jpg	007b.jpg	7	NA	New	007a.jpg	a	1	b
