RECORDING_SESSION_LABEL	INDEX	STUDY_PIC_RESPONSE	STUDY_REACTION_TIME	Session_Name_	Trial_Index_	Trial_Recycled_	base_file	block	block_number	degredation	image	insert	instruction_image	repeated
sp_jj_jm	1	-99	-99	sp_jj_jm	1	False	033a.jpg	1	1	75	033a.jpg	NA	indoor_instructions.jpg	1
sp_jj_jm	2	-99	-99	sp_jj_jm	2	False	034b.jpg	1	1	25	034b.jpg	NA	indoor_instructions.jpg	1
sp_jj_jm	3	-99	-99	sp_jj_jm	3	False	026b.jpg	1	1	25	026b.jpg	NA	indoor_instructions.jpg	1
sp_jj_jm	4	-99	-99	sp_jj_jm	4	False	009b.jpg	1	1	50	009b.jpg	NA	indoor_instructions.jpg	1
sp_jj_jm	5	-99	-99	sp_jj_jm	5	False	083a.jpg	1	1	0	083a.jpg	NA	indoor_instructions.jpg	1
sp_jj_jm	6	-99	-99	sp_jj_jm	6	False	038a.jpg	1	1	25	038a.jpg	NA	indoor_instructions.jpg	1
sp_jj_jm	7	-99	-99	sp_jj_jm	7	False	051a.jpg	1	1	0	051a.jpg	1	indoor_instructions.jpg	0
sp_jj_jm	8	-99	-99	sp_jj_jm	8	False	067a.jpg	1	1	0	067a.jpg	NA	indoor_instructions.jpg	1
sp_jj_jm	9	-99	-99	sp_jj_jm	9	False	086b.jpg	1	1	75	086b.jpg	NA	indoor_instructions.jpg	1
sp_jj_jm	10	-99	-99	sp_jj_jm	10	False	027b.jpg	1	1	25	027b.jpg	NA	indoor_instructions.jpg	1
sp_jj_jm	11	-99	-99	sp_jj_jm	11	False	031b.jpg	1	1	0	031b.jpg	NA	indoor_instructions.jpg	1
sp_jj_jm	12	-99	-99	sp_jj_jm	12	False	064b.jpg	1	1	50	064b.jpg	NA	indoor_instructions.jpg	1
sp_jj_jm	13	-99	-99	sp_jj_jm	13	False	039b.jpg	1	1	50	039b.jpg	NA	indoor_instructions.jpg	1
sp_jj_jm	14	-99	-99	sp_jj_jm	14	False	068b.jpg	1	1	75	068b.jpg	NA	indoor_instructions.jpg	1
sp_jj_jm	15	-99	-99	sp_jj_jm	15	False	082b.jpg	1	1	75	082b.jpg	NA	indoor_instructions.jpg	1
sp_jj_jm	16	-99	-99	sp_jj_jm	16	False	092b.jpg	1	1	75	092b.jpg	NA	indoor_instructions.jpg	1
sp_jj_jm	17	-99	-99	sp_jj_jm	17	False	035a.jpg	1	1	25	035a.jpg	NA	indoor_instructions.jpg	1
sp_jj_jm	18	-99	-99	sp_jj_jm	18	False	023b.jpg	1	1	0	023b.jpg	4	indoor_instructions.jpg	0
sp_jj_jm	19	-99	-99	sp_jj_jm	19	False	097a.jpg	1	1	25	097a.jpg	NA	indoor_instructions.jpg	1
sp_jj_jm	20	-99	-99	sp_jj_jm	20	False	090b.jpg	1	1	0	090b.jpg	4	indoor_instructions.jpg	0
sp_jj_jm	21	-99	-99	sp_jj_jm	21	False	011b.jpg	1	1	25	011b.jpg	NA	indoor_instructions.jpg	1
sp_jj_jm	22	-99	-99	sp_jj_jm	22	False	032b.jpg	1	1	50	032b.jpg	NA	indoor_instructions.jpg	1
sp_jj_jm	23	-99	-99	sp_jj_jm	23	False	080a.jpg	1	1	25	080a.jpg	NA	indoor_instructions.jpg	1
sp_jj_jm	24	-99	-99	sp_jj_jm	24	False	065a.jpg	1	1	0	065a.jpg	2	indoor_instructions.jpg	0
sp_jj_jm	25	-99	-99	sp_jj_jm	25	False	029b.jpg	1	1	50	029b.jpg	NA	indoor_instructions.jpg	1
sp_jj_jm	26	-99	-99	sp_jj_jm	26	False	078a.jpg	1	1	0	078a.jpg	4	indoor_instructions.jpg	0
sp_jj_jm	27	-99	-99	sp_jj_jm	27	False	045a.jpg	1	1	50	045a.jpg	NA	indoor_instructions.jpg	1
sp_jj_jm	28	-99	-99	sp_jj_jm	28	False	088a.jpg	1	1	25	088a.jpg	NA	indoor_instructions.jpg	1
sp_jj_jm	29	-99	-99	sp_jj_jm	29	False	042a.jpg	1	1	0	042a.jpg	NA	indoor_instructions.jpg	1
sp_jj_jm	30	-99	-99	sp_jj_jm	30	False	069a.jpg	1	1	25	069a.jpg	NA	indoor_instructions.jpg	1
sp_jj_jm	31	-99	-99	sp_jj_jm	31	False	059b.jpg	1	1	25	059b.jpg	NA	indoor_instructions.jpg	1
sp_jj_jm	32	-99	-99	sp_jj_jm	32	False	019b.jpg	1	1	75	019b.jpg	NA	indoor_instructions.jpg	1
sp_jj_jm	33	-99	-99	sp_jj_jm	33	False	001b.jpg	1	1	75	001b.jpg	NA	indoor_instructions.jpg	1
sp_jj_jm	34	-99	-99	sp_jj_jm	34	False	043a.jpg	1	1	75	043a.jpg	NA	indoor_instructions.jpg	1
sp_jj_jm	35	-99	-99	sp_jj_jm	35	False	053b.jpg	1	1	50	053b.jpg	NA	indoor_instructions.jpg	1
sp_jj_jm	36	-99	-99	sp_jj_jm	36	False	044b.jpg	1	1	75	044b.jpg	NA	indoor_instructions.jpg	1
sp_jj_jm	37	-99	-99	sp_jj_jm	37	False	021a.jpg	1	1	25	021a.jpg	NA	indoor_instructions.jpg	1
sp_jj_jm	38	-99	-99	sp_jj_jm	38	False	096b.jpg	1	1	0	096b.jpg	NA	indoor_instructions.jpg	1
sp_jj_jm	39	-99	-99	sp_jj_jm	39	False	087b.jpg	1	1	50	087b.jpg	NA	indoor_instructions.jpg	1
sp_jj_jm	40	-99	-99	sp_jj_jm	40	False	056a.jpg	1	1	0	056a.jpg	4	indoor_instructions.jpg	0
sp_jj_jm	41	-99	-99	sp_jj_jm	41	False	046b.jpg	1	1	25	046b.jpg	NA	indoor_instructions.jpg	1
sp_jj_jm	42	-99	-99	sp_jj_jm	42	False	018a.jpg	1	1	50	018a.jpg	NA	indoor_instructions.jpg	1
sp_jj_jm	43	-99	-99	sp_jj_jm	43	False	075b.jpg	1	1	0	075b.jpg	1	indoor_instructions.jpg	0
sp_jj_jm	44	-99	-99	sp_jj_jm	44	False	094b.jpg	1	1	75	094b.jpg	NA	indoor_instructions.jpg	1
sp_jj_jm	45	-99	-99	sp_jj_jm	45	False	089b.jpg	1	1	0	089b.jpg	NA	indoor_instructions.jpg	1
sp_jj_jm	46	-99	-99	sp_jj_jm	46	False	062a.jpg	1	1	0	062a.jpg	3	indoor_instructions.jpg	0
sp_jj_jm	47	-99	-99	sp_jj_jm	47	False	010a.jpg	1	1	0	010a.jpg	NA	indoor_instructions.jpg	1
sp_jj_jm	48	-99	-99	sp_jj_jm	48	False	013a.jpg	1	1	50	013a.jpg	NA	indoor_instructions.jpg	1
sp_jj_jm	49	-99	-99	sp_jj_jm	49	False	015a.jpg	1	1	0	015a.jpg	NA	indoor_instructions.jpg	1
sp_jj_jm	50	-99	-99	sp_jj_jm	50	False	005a.jpg	1	1	50	005a.jpg	NA	indoor_instructions.jpg	1
sp_jj_jm	51	-99	-99	sp_jj_jm	51	False	050a.jpg	1	1	50	050a.jpg	NA	indoor_instructions.jpg	1
sp_jj_jm	52	-99	-99	sp_jj_jm	52	False	003b.jpg	1	1	0	003b.jpg	NA	indoor_instructions.jpg	1
sp_jj_jm	53	-99	-99	sp_jj_jm	53	False	030a.jpg	1	1	0	030a.jpg	NA	indoor_instructions.jpg	1
sp_jj_jm	54	-99	-99	sp_jj_jm	54	False	098a.jpg	1	1	0	098a.jpg	NA	indoor_instructions.jpg	1
sp_jj_jm	55	-99	-99	sp_jj_jm	55	False	024a.jpg	1	1	0	024a.jpg	NA	indoor_instructions.jpg	1
sp_jj_jm	56	-99	-99	sp_jj_jm	56	False	091b.jpg	1	1	0	091b.jpg	2	indoor_instructions.jpg	0
sp_jj_jm	57	-99	-99	sp_jj_jm	57	False	006a.jpg	1	1	25	006a.jpg	NA	indoor_instructions.jpg	1
sp_jj_jm	58	-99	-99	sp_jj_jm	58	False	004a.jpg	1	1	25	004a.jpg	NA	indoor_instructions.jpg	1
sp_jj_jm	59	-99	-99	sp_jj_jm	59	False	048a.jpg	1	1	75	048a.jpg	NA	indoor_instructions.jpg	1
sp_jj_jm	60	-99	-99	sp_jj_jm	60	False	036b.jpg	1	1	0	036b.jpg	NA	indoor_instructions.jpg	1
sp_jj_jm	61	-99	-99	sp_jj_jm	61	False	071a.jpg	1	1	50	071a.jpg	NA	indoor_instructions.jpg	1
sp_jj_jm	62	-99	-99	sp_jj_jm	62	False	061b.jpg	1	1	0	061b.jpg	NA	indoor_instructions.jpg	1
sp_jj_jm	63	-99	-99	sp_jj_jm	63	False	058b.jpg	1	1	25	058b.jpg	NA	indoor_instructions.jpg	1
sp_jj_jm	64	-99	-99	sp_jj_jm	64	False	055b.jpg	1	1	0	055b.jpg	3	indoor_instructions.jpg	0
sp_jj_jm	65	-99	-99	sp_jj_jm	65	False	074b.jpg	1	1	25	074b.jpg	NA	indoor_instructions.jpg	1
sp_jj_jm	66	-99	-99	sp_jj_jm	66	False	014a.jpg	1	1	75	014a.jpg	NA	indoor_instructions.jpg	1
sp_jj_jm	67	-99	-99	sp_jj_jm	67	False	077b.jpg	1	1	75	077b.jpg	NA	indoor_instructions.jpg	1
sp_jj_jm	68	-99	-99	sp_jj_jm	68	False	060a.jpg	1	1	75	060a.jpg	NA	indoor_instructions.jpg	1
sp_jj_jm	69	-99	-99	sp_jj_jm	69	False	070a.jpg	1	1	0	070a.jpg	3	indoor_instructions.jpg	0
sp_jj_jm	70	-99	-99	sp_jj_jm	70	False	002a.jpg	1	1	50	002a.jpg	NA	indoor_instructions.jpg	1
sp_jj_jm	71	-99	-99	sp_jj_jm	71	False	049b.jpg	1	1	0	049b.jpg	2	indoor_instructions.jpg	0
sp_jj_jm	72	-99	-99	sp_jj_jm	72	False	052b.jpg	1	1	75	052b.jpg	NA	indoor_instructions.jpg	1
sp_jj_jm	73	-99	-99	sp_jj_jm	73	False	085b.jpg	1	1	50	085b.jpg	NA	indoor_instructions.jpg	1
sp_jj_jm	74	-99	-99	sp_jj_jm	74	False	017b.jpg	1	1	25	017b.jpg	NA	indoor_instructions.jpg	1
sp_jj_jm	75	-99	-99	sp_jj_jm	75	False	079a.jpg	1	1	50	079a.jpg	NA	indoor_instructions.jpg	1
sp_jj_jm	76	-99	-99	sp_jj_jm	76	False	099b.jpg	1	1	0	099b.jpg	NA	indoor_instructions.jpg	1
sp_jj_jm	77	-99	-99	sp_jj_jm	77	False	028a.jpg	1	1	75	028a.jpg	NA	indoor_instructions.jpg	1
sp_jj_jm	78	-99	-99	sp_jj_jm	78	False	095a.jpg	1	1	0	095a.jpg	NA	indoor_instructions.jpg	1
sp_jj_jm	79	-99	-99	sp_jj_jm	79	False	041a.jpg	1	1	0	041a.jpg	3	indoor_instructions.jpg	0
sp_jj_jm	80	-99	-99	sp_jj_jm	80	False	093a.jpg	1	1	50	093a.jpg	NA	indoor_instructions.jpg	1
sp_jj_jm	81	-99	-99	sp_jj_jm	81	False	073b.jpg	1	2	0	073b.jpg	1	tool_instructions.jpg	0
sp_jj_jm	82	-99	-99	sp_jj_jm	82	False	081b.jpg	1	2	25	081b.jpg	NA	tool_instructions.jpg	1
sp_jj_jm	83	-99	-99	sp_jj_jm	83	False	016b.jpg	1	2	0	016b.jpg	2	tool_instructions.jpg	0
sp_jj_jm	84	-99	-99	sp_jj_jm	84	False	007b.jpg	1	2	0	007b.jpg	NA	tool_instructions.jpg	1
sp_jj_jm	85	-99	-99	sp_jj_jm	85	False	040a.jpg	1	2	50	040a.jpg	NA	tool_instructions.jpg	1
sp_jj_jm	86	-99	-99	sp_jj_jm	86	False	057b.jpg	1	2	0	057b.jpg	NA	tool_instructions.jpg	1
sp_jj_jm	87	-99	-99	sp_jj_jm	87	False	020a.jpg	1	2	0	020a.jpg	1	tool_instructions.jpg	0
sp_jj_jm	88	-99	-99	sp_jj_jm	88	False	072b.jpg	1	2	75	072b.jpg	NA	tool_instructions.jpg	1
sp_jj_jm	89	-99	-99	sp_jj_jm	89	False	100a.jpg	1	2	50	100a.jpg	NA	tool_instructions.jpg	1
sp_jj_jm	90	-99	-99	sp_jj_jm	90	False	076b.jpg	1	2	75	076b.jpg	NA	tool_instructions.jpg	1
sp_jj_jm	91	-99	-99	sp_jj_jm	91	False	063a.jpg	1	2	0	063a.jpg	NA	tool_instructions.jpg	1
sp_jj_jm	92	-99	-99	sp_jj_jm	92	False	084b.jpg	1	2	75	084b.jpg	NA	tool_instructions.jpg	1
sp_jj_jm	93	-99	-99	sp_jj_jm	93	False	012a.jpg	1	2	0	012a.jpg	4	tool_instructions.jpg	0
sp_jj_jm	94	-99	-99	sp_jj_jm	94	False	066a.jpg	1	2	0	066a.jpg	2	tool_instructions.jpg	0
sp_jj_jm	95	-99	-99	sp_jj_jm	95	False	037b.jpg	1	2	75	037b.jpg	NA	tool_instructions.jpg	1
sp_jj_jm	96	-99	-99	sp_jj_jm	96	False	025a.jpg	1	2	25	025a.jpg	NA	tool_instructions.jpg	1
sp_jj_jm	97	-99	-99	sp_jj_jm	97	False	022a.jpg	1	2	0	022a.jpg	3	tool_instructions.jpg	0
sp_jj_jm	98	-99	-99	sp_jj_jm	98	False	008a.jpg	1	2	0	008a.jpg	NA	tool_instructions.jpg	1
sp_jj_jm	99	-99	-99	sp_jj_jm	99	False	047b.jpg	1	2	50	047b.jpg	NA	tool_instructions.jpg	1
sp_jj_jm	100	-99	-99	sp_jj_jm	100	False	054a.jpg	1	2	0	054a.jpg	1	tool_instructions.jpg	0
sp_jj_jm	101	-99	-99	sp_jj_jm	101	False	004a.jpg	2	2	25	004a_25_1.png	NA	tool_instructions.jpg	1
sp_jj_jm	102	-99	-99	sp_jj_jm	102	False	005a.jpg	2	2	50	005a_50_1.png	NA	tool_instructions.jpg	1
sp_jj_jm	103	-99	-99	sp_jj_jm	103	False	083a.jpg	2	2	0	083a.jpg	NA	tool_instructions.jpg	1
sp_jj_jm	104	-99	-99	sp_jj_jm	104	False	029b.jpg	2	2	50	029b_50_1.png	NA	tool_instructions.jpg	1
sp_jj_jm	105	-99	-99	sp_jj_jm	105	False	072b.jpg	2	2	75	072b_75_1.png	NA	tool_instructions.jpg	1
sp_jj_jm	106	-99	-99	sp_jj_jm	106	False	017b.jpg	2	2	25	017b_25_1.png	NA	tool_instructions.jpg	1
sp_jj_jm	107	-99	-99	sp_jj_jm	107	False	014a.jpg	2	2	75	014a_75_1.png	NA	tool_instructions.jpg	1
sp_jj_jm	108	-99	-99	sp_jj_jm	108	False	087b.jpg	2	2	50	087b_50_1.png	NA	tool_instructions.jpg	1
sp_jj_jm	109	-99	-99	sp_jj_jm	109	False	092b.jpg	2	2	75	092b_75_1.png	NA	tool_instructions.jpg	1
sp_jj_jm	110	-99	-99	sp_jj_jm	110	False	058b.jpg	2	2	25	058b_25_1.png	NA	tool_instructions.jpg	1
sp_jj_jm	111	-99	-99	sp_jj_jm	111	False	032b.jpg	2	2	50	032b_50_1.png	NA	tool_instructions.jpg	1
sp_jj_jm	112	-99	-99	sp_jj_jm	112	False	085b.jpg	2	2	50	085b_50_1.png	NA	tool_instructions.jpg	1
sp_jj_jm	113	-99	-99	sp_jj_jm	113	False	010a.jpg	2	2	0	010a.jpg	NA	tool_instructions.jpg	1
sp_jj_jm	114	-99	-99	sp_jj_jm	114	False	052b.jpg	2	2	75	052b_75_1.png	NA	tool_instructions.jpg	1
sp_jj_jm	115	-99	-99	sp_jj_jm	115	False	076b.jpg	2	2	75	076b_75_1.png	NA	tool_instructions.jpg	1
sp_jj_jm	116	-99	-99	sp_jj_jm	116	False	089b.jpg	2	2	0	089b.jpg	NA	tool_instructions.jpg	1
sp_jj_jm	117	-99	-99	sp_jj_jm	117	False	071a.jpg	2	2	50	071a_50_1.png	NA	tool_instructions.jpg	1
sp_jj_jm	118	-99	-99	sp_jj_jm	118	False	026b.jpg	2	2	25	026b_25_1.png	NA	tool_instructions.jpg	1
sp_jj_jm	119	-99	-99	sp_jj_jm	119	False	037b.jpg	2	2	75	037b_75_1.png	NA	tool_instructions.jpg	1
sp_jj_jm	120	-99	-99	sp_jj_jm	120	False	097a.jpg	2	2	25	097a_25_1.png	NA	tool_instructions.jpg	1
sp_jj_jm	121	-99	-99	sp_jj_jm	121	False	033a.jpg	2	2	75	033a_75_1.png	NA	tool_instructions.jpg	1
sp_jj_jm	122	-99	-99	sp_jj_jm	122	False	001b.jpg	2	2	75	001b_75_1.png	NA	tool_instructions.jpg	1
sp_jj_jm	123	-99	-99	sp_jj_jm	123	False	061b.jpg	2	2	0	061b.jpg	NA	tool_instructions.jpg	1
sp_jj_jm	124	-99	-99	sp_jj_jm	124	False	025a.jpg	2	2	25	025a_25_1.png	NA	tool_instructions.jpg	1
sp_jj_jm	125	-99	-99	sp_jj_jm	125	False	079a.jpg	2	2	50	079a_50_1.png	NA	tool_instructions.jpg	1
sp_jj_jm	126	-99	-99	sp_jj_jm	126	False	003b.jpg	2	2	0	003b.jpg	NA	tool_instructions.jpg	1
sp_jj_jm	127	-99	-99	sp_jj_jm	127	False	060a.jpg	2	2	75	060a_75_1.png	NA	tool_instructions.jpg	1
sp_jj_jm	128	-99	-99	sp_jj_jm	128	False	081b.jpg	2	2	25	081b_25_1.png	NA	tool_instructions.jpg	1
sp_jj_jm	129	-99	-99	sp_jj_jm	129	False	027b.jpg	2	2	25	027b_25_1.png	NA	tool_instructions.jpg	1
sp_jj_jm	130	-99	-99	sp_jj_jm	130	False	100a.jpg	2	2	50	100a_50_1.png	NA	tool_instructions.jpg	1
sp_jj_jm	131	-99	-99	sp_jj_jm	131	False	038a.jpg	2	2	25	038a_25_1.png	NA	tool_instructions.jpg	1
sp_jj_jm	132	-99	-99	sp_jj_jm	132	False	075b.jpg	2	2	0	075b.jpg	1	tool_instructions.jpg	0
sp_jj_jm	133	-99	-99	sp_jj_jm	133	False	086b.jpg	2	2	75	086b_75_1.png	NA	tool_instructions.jpg	1
sp_jj_jm	134	-99	-99	sp_jj_jm	134	False	084b.jpg	2	2	75	084b_75_1.png	NA	tool_instructions.jpg	1
sp_jj_jm	135	-99	-99	sp_jj_jm	135	False	051a.jpg	2	2	0	051a.jpg	1	tool_instructions.jpg	0
sp_jj_jm	136	-99	-99	sp_jj_jm	136	False	034b.jpg	2	2	25	034b_25_1.png	NA	tool_instructions.jpg	1
sp_jj_jm	137	-99	-99	sp_jj_jm	137	False	074b.jpg	2	2	25	074b_25_1.png	NA	tool_instructions.jpg	1
sp_jj_jm	138	-99	-99	sp_jj_jm	138	False	040a.jpg	2	2	50	040a_50_1.png	NA	tool_instructions.jpg	1
sp_jj_jm	139	-99	-99	sp_jj_jm	139	False	068b.jpg	2	2	75	068b_75_1.png	NA	tool_instructions.jpg	1
sp_jj_jm	140	-99	-99	sp_jj_jm	140	False	031b.jpg	2	2	0	031b.jpg	NA	tool_instructions.jpg	1
sp_jj_jm	141	-99	-99	sp_jj_jm	141	False	047b.jpg	2	2	50	047b_50_1.png	NA	tool_instructions.jpg	1
sp_jj_jm	142	-99	-99	sp_jj_jm	142	False	030a.jpg	2	2	0	030a.jpg	NA	tool_instructions.jpg	1
sp_jj_jm	143	-99	-99	sp_jj_jm	143	False	011b.jpg	2	2	25	011b_25_1.png	NA	tool_instructions.jpg	1
sp_jj_jm	144	-99	-99	sp_jj_jm	144	False	096b.jpg	2	2	0	096b.jpg	NA	tool_instructions.jpg	1
sp_jj_jm	145	-99	-99	sp_jj_jm	145	False	045a.jpg	2	2	50	045a_50_1.png	NA	tool_instructions.jpg	1
sp_jj_jm	146	-99	-99	sp_jj_jm	146	False	046b.jpg	2	2	25	046b_25_1.png	NA	tool_instructions.jpg	1
sp_jj_jm	147	-99	-99	sp_jj_jm	147	False	020a.jpg	2	2	0	020a.jpg	1	tool_instructions.jpg	0
sp_jj_jm	148	-99	-99	sp_jj_jm	148	False	013a.jpg	2	2	50	013a_50_1.png	NA	tool_instructions.jpg	1
sp_jj_jm	149	-99	-99	sp_jj_jm	149	False	069a.jpg	2	2	25	069a_25_1.png	NA	tool_instructions.jpg	1
sp_jj_jm	150	-99	-99	sp_jj_jm	150	False	093a.jpg	2	2	50	093a_50_1.png	NA	tool_instructions.jpg	1
sp_jj_jm	151	-99	-99	sp_jj_jm	151	False	015a.jpg	2	2	0	015a.jpg	NA	tool_instructions.jpg	1
sp_jj_jm	152	-99	-99	sp_jj_jm	152	False	063a.jpg	2	2	0	063a.jpg	NA	tool_instructions.jpg	1
sp_jj_jm	153	-99	-99	sp_jj_jm	153	False	082b.jpg	2	2	75	082b_75_1.png	NA	tool_instructions.jpg	1
sp_jj_jm	154	-99	-99	sp_jj_jm	154	False	039b.jpg	2	2	50	039b_50_1.png	NA	tool_instructions.jpg	1
sp_jj_jm	155	-99	-99	sp_jj_jm	155	False	099b.jpg	2	2	0	099b.jpg	NA	tool_instructions.jpg	1
sp_jj_jm	156	-99	-99	sp_jj_jm	156	False	021a.jpg	2	2	25	021a_25_1.png	NA	tool_instructions.jpg	1
sp_jj_jm	157	-99	-99	sp_jj_jm	157	False	067a.jpg	2	2	0	067a.jpg	NA	tool_instructions.jpg	1
sp_jj_jm	158	-99	-99	sp_jj_jm	158	False	098a.jpg	2	2	0	098a.jpg	NA	tool_instructions.jpg	1
sp_jj_jm	159	-99	-99	sp_jj_jm	159	False	064b.jpg	2	2	50	064b_50_1.png	NA	tool_instructions.jpg	1
sp_jj_jm	160	-99	-99	sp_jj_jm	160	False	019b.jpg	2	2	75	019b_75_1.png	NA	tool_instructions.jpg	1
sp_jj_jm	161	-99	-99	sp_jj_jm	161	False	073b.jpg	2	2	0	073b.jpg	1	tool_instructions.jpg	0
sp_jj_jm	162	-99	-99	sp_jj_jm	162	False	042a.jpg	2	2	0	042a.jpg	NA	tool_instructions.jpg	1
sp_jj_jm	163	-99	-99	sp_jj_jm	163	False	028a.jpg	2	2	75	028a_75_1.png	NA	tool_instructions.jpg	1
sp_jj_jm	164	-99	-99	sp_jj_jm	164	False	018a.jpg	2	2	50	018a_50_1.png	NA	tool_instructions.jpg	1
sp_jj_jm	165	-99	-99	sp_jj_jm	165	False	035a.jpg	2	2	25	035a_25_1.png	NA	tool_instructions.jpg	1
sp_jj_jm	166	-99	-99	sp_jj_jm	166	False	009b.jpg	2	4	50	009b_50_1.png	NA	shoe_instructions.jpg	1
sp_jj_jm	167	-99	-99	sp_jj_jm	167	False	094b.jpg	2	4	75	094b_75_1.png	NA	shoe_instructions.jpg	1
sp_jj_jm	168	-99	-99	sp_jj_jm	168	False	053b.jpg	2	4	50	053b_50_1.png	NA	shoe_instructions.jpg	1
sp_jj_jm	169	-99	-99	sp_jj_jm	169	False	024a.jpg	2	4	0	024a.jpg	NA	shoe_instructions.jpg	1
sp_jj_jm	170	-99	-99	sp_jj_jm	170	False	059b.jpg	2	4	25	059b_25_1.png	NA	shoe_instructions.jpg	1
sp_jj_jm	171	-99	-99	sp_jj_jm	171	False	088a.jpg	2	4	25	088a_25_1.png	NA	shoe_instructions.jpg	1
sp_jj_jm	172	-99	-99	sp_jj_jm	172	False	036b.jpg	2	4	0	036b.jpg	NA	shoe_instructions.jpg	1
sp_jj_jm	173	-99	-99	sp_jj_jm	173	False	050a.jpg	2	4	50	050a_50_1.png	NA	shoe_instructions.jpg	1
sp_jj_jm	174	-99	-99	sp_jj_jm	174	False	054a.jpg	2	4	0	054a.jpg	1	shoe_instructions.jpg	0
sp_jj_jm	175	-99	-99	sp_jj_jm	175	False	057b.jpg	2	4	0	057b.jpg	NA	shoe_instructions.jpg	1
sp_jj_jm	176	-99	-99	sp_jj_jm	176	False	008a.jpg	2	4	0	008a.jpg	NA	shoe_instructions.jpg	1
sp_jj_jm	177	-99	-99	sp_jj_jm	177	False	007b.jpg	2	4	0	007b.jpg	NA	shoe_instructions.jpg	1
sp_jj_jm	178	-99	-99	sp_jj_jm	178	False	002a.jpg	2	4	50	002a_50_1.png	NA	shoe_instructions.jpg	1
sp_jj_jm	179	-99	-99	sp_jj_jm	179	False	077b.jpg	2	4	75	077b_75_1.png	NA	shoe_instructions.jpg	1
sp_jj_jm	180	-99	-99	sp_jj_jm	180	False	080a.jpg	2	4	25	080a_25_1.png	NA	shoe_instructions.jpg	1
sp_jj_jm	181	-99	-99	sp_jj_jm	181	False	043a.jpg	2	4	75	043a_75_1.png	NA	shoe_instructions.jpg	1
sp_jj_jm	182	-99	-99	sp_jj_jm	182	False	044b.jpg	2	4	75	044b_75_1.png	NA	shoe_instructions.jpg	1
sp_jj_jm	183	-99	-99	sp_jj_jm	183	False	006a.jpg	2	4	25	006a_25_1.png	NA	shoe_instructions.jpg	1
sp_jj_jm	184	-99	-99	sp_jj_jm	184	False	095a.jpg	2	4	0	095a.jpg	NA	shoe_instructions.jpg	1
sp_jj_jm	185	-99	-99	sp_jj_jm	185	False	048a.jpg	2	4	75	048a_75_1.png	NA	shoe_instructions.jpg	1
sp_jj_jm	186	-99	-99	sp_jj_jm	186	False	010a.jpg	3	4	0	010a.jpg	NA	shoe_instructions.jpg	1
sp_jj_jm	187	-99	-99	sp_jj_jm	187	False	029b.jpg	3	4	50	029b_50_2.png	NA	shoe_instructions.jpg	1
sp_jj_jm	188	-99	-99	sp_jj_jm	188	False	036b.jpg	3	4	0	036b.jpg	NA	shoe_instructions.jpg	1
sp_jj_jm	189	-99	-99	sp_jj_jm	189	False	005a.jpg	3	4	50	005a_50_2.png	NA	shoe_instructions.jpg	1
sp_jj_jm	190	-99	-99	sp_jj_jm	190	False	037b.jpg	3	4	75	037b_75_2.png	NA	shoe_instructions.jpg	1
sp_jj_jm	191	-99	-99	sp_jj_jm	191	False	008a.jpg	3	4	0	008a.jpg	NA	shoe_instructions.jpg	1
sp_jj_jm	192	-99	-99	sp_jj_jm	192	False	081b.jpg	3	4	25	081b_25_2.png	NA	shoe_instructions.jpg	1
sp_jj_jm	193	-99	-99	sp_jj_jm	193	False	011b.jpg	3	4	25	011b_25_2.png	NA	shoe_instructions.jpg	1
sp_jj_jm	194	-99	-99	sp_jj_jm	194	False	027b.jpg	3	4	25	027b_25_2.png	NA	shoe_instructions.jpg	1
sp_jj_jm	195	-99	-99	sp_jj_jm	195	False	098a.jpg	3	4	0	098a.jpg	NA	shoe_instructions.jpg	1
sp_jj_jm	196	-99	-99	sp_jj_jm	196	False	009b.jpg	3	4	50	009b_50_2.png	NA	shoe_instructions.jpg	1
sp_jj_jm	197	-99	-99	sp_jj_jm	197	False	072b.jpg	3	4	75	072b_75_2.png	NA	shoe_instructions.jpg	1
sp_jj_jm	198	-99	-99	sp_jj_jm	198	False	084b.jpg	3	4	75	084b_75_2.png	NA	shoe_instructions.jpg	1
sp_jj_jm	199	-99	-99	sp_jj_jm	199	False	028a.jpg	3	4	75	028a_75_2.png	NA	shoe_instructions.jpg	1
sp_jj_jm	200	-99	-99	sp_jj_jm	200	False	083a.jpg	3	4	0	083a.jpg	NA	shoe_instructions.jpg	1
sp_jj_jm	201	-99	-99	sp_jj_jm	201	False	079a.jpg	3	4	50	079a_50_2.png	NA	shoe_instructions.jpg	1
sp_jj_jm	202	-99	-99	sp_jj_jm	202	False	018a.jpg	3	4	50	018a_50_2.png	NA	shoe_instructions.jpg	1
sp_jj_jm	203	-99	-99	sp_jj_jm	203	False	013a.jpg	3	4	50	013a_50_2.png	NA	shoe_instructions.jpg	1
sp_jj_jm	204	-99	-99	sp_jj_jm	204	False	017b.jpg	3	4	25	017b_25_2.png	NA	shoe_instructions.jpg	1
sp_jj_jm	205	-99	-99	sp_jj_jm	205	False	043a.jpg	3	4	75	043a_75_2.png	NA	shoe_instructions.jpg	1
sp_jj_jm	206	-99	-99	sp_jj_jm	206	False	001b.jpg	3	4	75	001b_75_2.png	NA	shoe_instructions.jpg	1
sp_jj_jm	207	-99	-99	sp_jj_jm	207	False	076b.jpg	3	4	75	076b_75_2.png	NA	shoe_instructions.jpg	1
sp_jj_jm	208	-99	-99	sp_jj_jm	208	False	094b.jpg	3	4	75	094b_75_2.png	NA	shoe_instructions.jpg	1
sp_jj_jm	209	-99	-99	sp_jj_jm	209	False	060a.jpg	3	4	75	060a_75_2.png	NA	shoe_instructions.jpg	1
sp_jj_jm	210	-99	-99	sp_jj_jm	210	False	030a.jpg	3	4	0	030a.jpg	NA	shoe_instructions.jpg	1
sp_jj_jm	211	-99	-99	sp_jj_jm	211	False	068b.jpg	3	4	75	068b_75_2.png	NA	shoe_instructions.jpg	1
sp_jj_jm	212	-99	-99	sp_jj_jm	212	False	048a.jpg	3	4	75	048a_75_2.png	NA	shoe_instructions.jpg	1
sp_jj_jm	213	-99	-99	sp_jj_jm	213	False	058b.jpg	3	4	25	058b_25_2.png	NA	shoe_instructions.jpg	1
sp_jj_jm	214	-99	-99	sp_jj_jm	214	False	088a.jpg	3	4	25	088a_25_2.png	NA	shoe_instructions.jpg	1
sp_jj_jm	215	-99	-99	sp_jj_jm	215	False	095a.jpg	3	4	0	095a.jpg	NA	shoe_instructions.jpg	1
sp_jj_jm	216	-99	-99	sp_jj_jm	216	False	040a.jpg	3	4	50	040a_50_2.png	NA	shoe_instructions.jpg	1
sp_jj_jm	217	-99	-99	sp_jj_jm	217	False	085b.jpg	3	4	50	085b_50_2.png	NA	shoe_instructions.jpg	1
sp_jj_jm	218	-99	-99	sp_jj_jm	218	False	082b.jpg	3	4	75	082b_75_2.png	NA	shoe_instructions.jpg	1
sp_jj_jm	219	-99	-99	sp_jj_jm	219	False	016b.jpg	3	4	0	016b.jpg	2	shoe_instructions.jpg	0
sp_jj_jm	220	-99	-99	sp_jj_jm	220	False	044b.jpg	3	4	75	044b_75_2.png	NA	shoe_instructions.jpg	1
sp_jj_jm	221	-99	-99	sp_jj_jm	221	False	034b.jpg	3	4	25	034b_25_2.png	NA	shoe_instructions.jpg	1
sp_jj_jm	222	-99	-99	sp_jj_jm	222	False	039b.jpg	3	4	50	039b_50_2.png	NA	shoe_instructions.jpg	1
sp_jj_jm	223	-99	-99	sp_jj_jm	223	False	059b.jpg	3	4	25	059b_25_2.png	NA	shoe_instructions.jpg	1
sp_jj_jm	224	-99	-99	sp_jj_jm	224	False	061b.jpg	3	4	0	061b.jpg	NA	shoe_instructions.jpg	1
sp_jj_jm	225	-99	-99	sp_jj_jm	225	False	026b.jpg	3	4	25	026b_25_2.png	NA	shoe_instructions.jpg	1
sp_jj_jm	226	-99	-99	sp_jj_jm	226	False	069a.jpg	3	4	25	069a_25_2.png	NA	shoe_instructions.jpg	1
sp_jj_jm	227	-99	-99	sp_jj_jm	227	False	057b.jpg	3	4	0	057b.jpg	NA	shoe_instructions.jpg	1
sp_jj_jm	228	-99	-99	sp_jj_jm	228	False	100a.jpg	3	4	50	100a_50_2.png	NA	shoe_instructions.jpg	1
sp_jj_jm	229	-99	-99	sp_jj_jm	229	False	099b.jpg	3	4	0	099b.jpg	NA	shoe_instructions.jpg	1
sp_jj_jm	230	-99	-99	sp_jj_jm	230	False	077b.jpg	3	4	75	077b_75_2.png	NA	shoe_instructions.jpg	1
sp_jj_jm	231	-99	-99	sp_jj_jm	231	False	032b.jpg	3	4	50	032b_50_2.png	NA	shoe_instructions.jpg	1
sp_jj_jm	232	-99	-99	sp_jj_jm	232	False	074b.jpg	3	4	25	074b_25_2.png	NA	shoe_instructions.jpg	1
sp_jj_jm	233	-99	-99	sp_jj_jm	233	False	004a.jpg	3	4	25	004a_25_2.png	NA	shoe_instructions.jpg	1
sp_jj_jm	234	-99	-99	sp_jj_jm	234	False	019b.jpg	3	4	75	019b_75_2.png	NA	shoe_instructions.jpg	1
sp_jj_jm	235	-99	-99	sp_jj_jm	235	False	087b.jpg	3	4	50	087b_50_2.png	NA	shoe_instructions.jpg	1
sp_jj_jm	236	-99	-99	sp_jj_jm	236	False	007b.jpg	3	4	0	007b.jpg	NA	shoe_instructions.jpg	1
sp_jj_jm	237	-99	-99	sp_jj_jm	237	False	024a.jpg	3	4	0	024a.jpg	NA	shoe_instructions.jpg	1
sp_jj_jm	238	-99	-99	sp_jj_jm	238	False	003b.jpg	3	4	0	003b.jpg	NA	shoe_instructions.jpg	1
sp_jj_jm	239	-99	-99	sp_jj_jm	239	False	065a.jpg	3	4	0	065a.jpg	2	shoe_instructions.jpg	0
sp_jj_jm	240	-99	-99	sp_jj_jm	240	False	053b.jpg	3	4	50	053b_50_2.png	NA	shoe_instructions.jpg	1
sp_jj_jm	241	-99	-99	sp_jj_jm	241	False	014a.jpg	3	4	75	014a_75_2.png	NA	shoe_instructions.jpg	1
sp_jj_jm	242	-99	-99	sp_jj_jm	242	False	093a.jpg	3	4	50	093a_50_2.png	NA	shoe_instructions.jpg	1
sp_jj_jm	243	-99	-99	sp_jj_jm	243	False	091b.jpg	3	4	0	091b.jpg	2	shoe_instructions.jpg	0
sp_jj_jm	244	-99	-99	sp_jj_jm	244	False	064b.jpg	3	4	50	064b_50_2.png	NA	shoe_instructions.jpg	1
sp_jj_jm	245	-99	-99	sp_jj_jm	245	False	038a.jpg	3	4	25	038a_25_2.png	NA	shoe_instructions.jpg	1
sp_jj_jm	246	-99	-99	sp_jj_jm	246	False	086b.jpg	3	4	75	086b_75_2.png	NA	shoe_instructions.jpg	1
sp_jj_jm	247	-99	-99	sp_jj_jm	247	False	089b.jpg	3	4	0	089b.jpg	NA	shoe_instructions.jpg	1
sp_jj_jm	248	-99	-99	sp_jj_jm	248	False	067a.jpg	3	4	0	067a.jpg	NA	shoe_instructions.jpg	1
sp_jj_jm	249	-99	-99	sp_jj_jm	249	False	080a.jpg	3	4	25	080a_25_2.png	NA	shoe_instructions.jpg	1
sp_jj_jm	250	-99	-99	sp_jj_jm	250	False	097a.jpg	3	4	25	097a_25_2.png	NA	shoe_instructions.jpg	1
sp_jj_jm	251	-99	-99	sp_jj_jm	251	False	015a.jpg	3	3	0	015a.jpg	NA	metal_instructions.jpg	1
sp_jj_jm	252	-99	-99	sp_jj_jm	252	False	066a.jpg	3	3	0	066a.jpg	2	metal_instructions.jpg	0
sp_jj_jm	253	-99	-99	sp_jj_jm	253	False	006a.jpg	3	3	25	006a_25_2.png	NA	metal_instructions.jpg	1
sp_jj_jm	254	-99	-99	sp_jj_jm	254	False	092b.jpg	3	3	75	092b_75_2.png	NA	metal_instructions.jpg	1
sp_jj_jm	255	-99	-99	sp_jj_jm	255	False	071a.jpg	3	3	50	071a_50_2.png	NA	metal_instructions.jpg	1
sp_jj_jm	256	-99	-99	sp_jj_jm	256	False	046b.jpg	3	3	25	046b_25_2.png	NA	metal_instructions.jpg	1
sp_jj_jm	257	-99	-99	sp_jj_jm	257	False	042a.jpg	3	3	0	042a.jpg	NA	metal_instructions.jpg	1
sp_jj_jm	258	-99	-99	sp_jj_jm	258	False	035a.jpg	3	3	25	035a_25_2.png	NA	metal_instructions.jpg	1
sp_jj_jm	259	-99	-99	sp_jj_jm	259	False	096b.jpg	3	3	0	096b.jpg	NA	metal_instructions.jpg	1
sp_jj_jm	260	-99	-99	sp_jj_jm	260	False	045a.jpg	3	3	50	045a_50_2.png	NA	metal_instructions.jpg	1
sp_jj_jm	261	-99	-99	sp_jj_jm	261	False	031b.jpg	3	3	0	031b.jpg	NA	metal_instructions.jpg	1
sp_jj_jm	262	-99	-99	sp_jj_jm	262	False	052b.jpg	3	3	75	052b_75_2.png	NA	metal_instructions.jpg	1
sp_jj_jm	263	-99	-99	sp_jj_jm	263	False	049b.jpg	3	3	0	049b.jpg	2	metal_instructions.jpg	0
sp_jj_jm	264	-99	-99	sp_jj_jm	264	False	021a.jpg	3	3	25	021a_25_2.png	NA	metal_instructions.jpg	1
sp_jj_jm	265	-99	-99	sp_jj_jm	265	False	002a.jpg	3	3	50	002a_50_2.png	NA	metal_instructions.jpg	1
sp_jj_jm	266	-99	-99	sp_jj_jm	266	False	025a.jpg	3	3	25	025a_25_2.png	NA	metal_instructions.jpg	1
sp_jj_jm	267	-99	-99	sp_jj_jm	267	False	063a.jpg	3	3	0	063a.jpg	NA	metal_instructions.jpg	1
sp_jj_jm	268	-99	-99	sp_jj_jm	268	False	050a.jpg	3	3	50	050a_50_2.png	NA	metal_instructions.jpg	1
sp_jj_jm	269	-99	-99	sp_jj_jm	269	False	047b.jpg	3	3	50	047b_50_2.png	NA	metal_instructions.jpg	1
sp_jj_jm	270	-99	-99	sp_jj_jm	270	False	033a.jpg	3	3	75	033a_75_2.png	NA	metal_instructions.jpg	1
sp_jj_jm	271	-99	-99	sp_jj_jm	271	False	060a.jpg	4	3	75	060a_75_3.png	NA	metal_instructions.jpg	1
sp_jj_jm	272	-99	-99	sp_jj_jm	272	False	088a.jpg	4	3	25	088a_25_3.png	NA	metal_instructions.jpg	1
sp_jj_jm	273	-99	-99	sp_jj_jm	273	False	061b.jpg	4	3	0	061b.jpg	NA	metal_instructions.jpg	1
sp_jj_jm	274	-99	-99	sp_jj_jm	274	False	046b.jpg	4	3	25	046b_25_3.png	NA	metal_instructions.jpg	1
sp_jj_jm	275	-99	-99	sp_jj_jm	275	False	014a.jpg	4	3	75	014a_75_3.png	NA	metal_instructions.jpg	1
sp_jj_jm	276	-99	-99	sp_jj_jm	276	False	027b.jpg	4	3	25	027b_25_3.png	NA	metal_instructions.jpg	1
sp_jj_jm	277	-99	-99	sp_jj_jm	277	False	079a.jpg	4	3	50	079a_50_3.png	NA	metal_instructions.jpg	1
sp_jj_jm	278	-99	-99	sp_jj_jm	278	False	080a.jpg	4	3	25	080a_25_3.png	NA	metal_instructions.jpg	1
sp_jj_jm	279	-99	-99	sp_jj_jm	279	False	007b.jpg	4	3	0	007b.jpg	NA	metal_instructions.jpg	1
sp_jj_jm	280	-99	-99	sp_jj_jm	280	False	036b.jpg	4	3	0	036b.jpg	NA	metal_instructions.jpg	1
sp_jj_jm	281	-99	-99	sp_jj_jm	281	False	058b.jpg	4	3	25	058b_25_3.png	NA	metal_instructions.jpg	1
sp_jj_jm	282	-99	-99	sp_jj_jm	282	False	052b.jpg	4	3	75	052b_75_3.png	NA	metal_instructions.jpg	1
sp_jj_jm	283	-99	-99	sp_jj_jm	283	False	092b.jpg	4	3	75	092b_75_3.png	NA	metal_instructions.jpg	1
sp_jj_jm	284	-99	-99	sp_jj_jm	284	False	024a.jpg	4	3	0	024a.jpg	NA	metal_instructions.jpg	1
sp_jj_jm	285	-99	-99	sp_jj_jm	285	False	039b.jpg	4	3	50	039b_50_3.png	NA	metal_instructions.jpg	1
sp_jj_jm	286	-99	-99	sp_jj_jm	286	False	089b.jpg	4	3	0	089b.jpg	NA	metal_instructions.jpg	1
sp_jj_jm	287	-99	-99	sp_jj_jm	287	False	074b.jpg	4	3	25	074b_25_3.png	NA	metal_instructions.jpg	1
sp_jj_jm	288	-99	-99	sp_jj_jm	288	False	033a.jpg	4	3	75	033a_75_3.png	NA	metal_instructions.jpg	1
sp_jj_jm	289	-99	-99	sp_jj_jm	289	False	030a.jpg	4	3	0	030a.jpg	NA	metal_instructions.jpg	1
sp_jj_jm	290	-99	-99	sp_jj_jm	290	False	093a.jpg	4	3	50	093a_50_3.png	NA	metal_instructions.jpg	1
sp_jj_jm	291	-99	-99	sp_jj_jm	291	False	032b.jpg	4	3	50	032b_50_3.png	NA	metal_instructions.jpg	1
sp_jj_jm	292	-99	-99	sp_jj_jm	292	False	083a.jpg	4	3	0	083a.jpg	NA	metal_instructions.jpg	1
sp_jj_jm	293	-99	-99	sp_jj_jm	293	False	002a.jpg	4	3	50	002a_50_3.png	NA	metal_instructions.jpg	1
sp_jj_jm	294	-99	-99	sp_jj_jm	294	False	017b.jpg	4	3	25	017b_25_3.png	NA	metal_instructions.jpg	1
sp_jj_jm	295	-99	-99	sp_jj_jm	295	False	037b.jpg	4	3	75	037b_75_3.png	NA	metal_instructions.jpg	1
sp_jj_jm	296	-99	-99	sp_jj_jm	296	False	042a.jpg	4	3	0	042a.jpg	NA	metal_instructions.jpg	1
sp_jj_jm	297	-99	-99	sp_jj_jm	297	False	077b.jpg	4	3	75	077b_75_3.png	NA	metal_instructions.jpg	1
sp_jj_jm	298	-99	-99	sp_jj_jm	298	False	097a.jpg	4	3	25	097a_25_3.png	NA	metal_instructions.jpg	1
sp_jj_jm	299	-99	-99	sp_jj_jm	299	False	062a.jpg	4	3	0	062a.jpg	3	metal_instructions.jpg	0
sp_jj_jm	300	-99	-99	sp_jj_jm	300	False	043a.jpg	4	3	75	043a_75_3.png	NA	metal_instructions.jpg	1
sp_jj_jm	301	-99	-99	sp_jj_jm	301	False	034b.jpg	4	3	25	034b_25_3.png	NA	metal_instructions.jpg	1
sp_jj_jm	302	-99	-99	sp_jj_jm	302	False	081b.jpg	4	3	25	081b_25_3.png	NA	metal_instructions.jpg	1
sp_jj_jm	303	-99	-99	sp_jj_jm	303	False	098a.jpg	4	3	0	098a.jpg	NA	metal_instructions.jpg	1
sp_jj_jm	304	-99	-99	sp_jj_jm	304	False	082b.jpg	4	3	75	082b_75_3.png	NA	metal_instructions.jpg	1
sp_jj_jm	305	-99	-99	sp_jj_jm	305	False	087b.jpg	4	3	50	087b_50_3.png	NA	metal_instructions.jpg	1
sp_jj_jm	306	-99	-99	sp_jj_jm	306	False	005a.jpg	4	3	50	005a_50_3.png	NA	metal_instructions.jpg	1
sp_jj_jm	307	-99	-99	sp_jj_jm	307	False	055b.jpg	4	3	0	055b.jpg	3	metal_instructions.jpg	0
sp_jj_jm	308	-99	-99	sp_jj_jm	308	False	067a.jpg	4	3	0	067a.jpg	NA	metal_instructions.jpg	1
sp_jj_jm	309	-99	-99	sp_jj_jm	309	False	011b.jpg	4	3	25	011b_25_3.png	NA	metal_instructions.jpg	1
sp_jj_jm	310	-99	-99	sp_jj_jm	310	False	053b.jpg	4	3	50	053b_50_3.png	NA	metal_instructions.jpg	1
sp_jj_jm	311	-99	-99	sp_jj_jm	311	False	096b.jpg	4	3	0	096b.jpg	NA	metal_instructions.jpg	1
sp_jj_jm	312	-99	-99	sp_jj_jm	312	False	006a.jpg	4	3	25	006a_25_3.png	NA	metal_instructions.jpg	1
sp_jj_jm	313	-99	-99	sp_jj_jm	313	False	057b.jpg	4	3	0	057b.jpg	NA	metal_instructions.jpg	1
sp_jj_jm	314	-99	-99	sp_jj_jm	314	False	038a.jpg	4	3	25	038a_25_3.png	NA	metal_instructions.jpg	1
sp_jj_jm	315	-99	-99	sp_jj_jm	315	False	025a.jpg	4	3	25	025a_25_3.png	NA	metal_instructions.jpg	1
sp_jj_jm	316	-99	-99	sp_jj_jm	316	False	069a.jpg	4	3	25	069a_25_3.png	NA	metal_instructions.jpg	1
sp_jj_jm	317	-99	-99	sp_jj_jm	317	False	099b.jpg	4	3	0	099b.jpg	NA	metal_instructions.jpg	1
sp_jj_jm	318	-99	-99	sp_jj_jm	318	False	076b.jpg	4	3	75	076b_75_3.png	NA	metal_instructions.jpg	1
sp_jj_jm	319	-99	-99	sp_jj_jm	319	False	028a.jpg	4	3	75	028a_75_3.png	NA	metal_instructions.jpg	1
sp_jj_jm	320	-99	-99	sp_jj_jm	320	False	048a.jpg	4	3	75	048a_75_3.png	NA	metal_instructions.jpg	1
sp_jj_jm	321	-99	-99	sp_jj_jm	321	False	086b.jpg	4	3	75	086b_75_3.png	NA	metal_instructions.jpg	1
sp_jj_jm	322	-99	-99	sp_jj_jm	322	False	010a.jpg	4	3	0	010a.jpg	NA	metal_instructions.jpg	1
sp_jj_jm	323	-99	-99	sp_jj_jm	323	False	001b.jpg	4	3	75	001b_75_3.png	NA	metal_instructions.jpg	1
sp_jj_jm	324	-99	-99	sp_jj_jm	324	False	041a.jpg	4	3	0	041a.jpg	3	metal_instructions.jpg	0
sp_jj_jm	325	-99	-99	sp_jj_jm	325	False	003b.jpg	4	3	0	003b.jpg	NA	metal_instructions.jpg	1
sp_jj_jm	326	-99	-99	sp_jj_jm	326	False	015a.jpg	4	3	0	015a.jpg	NA	metal_instructions.jpg	1
sp_jj_jm	327	-99	-99	sp_jj_jm	327	False	068b.jpg	4	3	75	068b_75_3.png	NA	metal_instructions.jpg	1
sp_jj_jm	328	-99	-99	sp_jj_jm	328	False	084b.jpg	4	3	75	084b_75_3.png	NA	metal_instructions.jpg	1
sp_jj_jm	329	-99	-99	sp_jj_jm	329	False	095a.jpg	4	3	0	095a.jpg	NA	metal_instructions.jpg	1
sp_jj_jm	330	-99	-99	sp_jj_jm	330	False	029b.jpg	4	3	50	029b_50_3.png	NA	metal_instructions.jpg	1
sp_jj_jm	331	-99	-99	sp_jj_jm	331	False	085b.jpg	4	3	50	085b_50_3.png	NA	metal_instructions.jpg	1
sp_jj_jm	332	-99	-99	sp_jj_jm	332	False	026b.jpg	4	3	25	026b_25_3.png	NA	metal_instructions.jpg	1
sp_jj_jm	333	-99	-99	sp_jj_jm	333	False	045a.jpg	4	3	50	045a_50_3.png	NA	metal_instructions.jpg	1
sp_jj_jm	334	-99	-99	sp_jj_jm	334	False	059b.jpg	4	3	25	059b_25_3.png	NA	metal_instructions.jpg	1
sp_jj_jm	335	-99	-99	sp_jj_jm	335	False	047b.jpg	4	3	50	047b_50_3.png	NA	metal_instructions.jpg	1
sp_jj_jm	336	-99	-99	sp_jj_jm	336	False	013a.jpg	4	5	50	013a_50_3.png	NA	colour_instructions.jpg	1
sp_jj_jm	337	-99	-99	sp_jj_jm	337	False	009b.jpg	4	5	50	009b_50_3.png	NA	colour_instructions.jpg	1
sp_jj_jm	338	-99	-99	sp_jj_jm	338	False	050a.jpg	4	5	50	050a_50_3.png	NA	colour_instructions.jpg	1
sp_jj_jm	339	-99	-99	sp_jj_jm	339	False	035a.jpg	4	5	25	035a_25_3.png	NA	colour_instructions.jpg	1
sp_jj_jm	340	-99	-99	sp_jj_jm	340	False	044b.jpg	4	5	75	044b_75_3.png	NA	colour_instructions.jpg	1
sp_jj_jm	341	-99	-99	sp_jj_jm	341	False	022a.jpg	4	5	0	022a.jpg	3	colour_instructions.jpg	0
sp_jj_jm	342	-99	-99	sp_jj_jm	342	False	072b.jpg	4	5	75	072b_75_3.png	NA	colour_instructions.jpg	1
sp_jj_jm	343	-99	-99	sp_jj_jm	343	False	094b.jpg	4	5	75	094b_75_3.png	NA	colour_instructions.jpg	1
sp_jj_jm	344	-99	-99	sp_jj_jm	344	False	031b.jpg	4	5	0	031b.jpg	NA	colour_instructions.jpg	1
sp_jj_jm	345	-99	-99	sp_jj_jm	345	False	004a.jpg	4	5	25	004a_25_3.png	NA	colour_instructions.jpg	1
sp_jj_jm	346	-99	-99	sp_jj_jm	346	False	018a.jpg	4	5	50	018a_50_3.png	NA	colour_instructions.jpg	1
sp_jj_jm	347	-99	-99	sp_jj_jm	347	False	064b.jpg	4	5	50	064b_50_3.png	NA	colour_instructions.jpg	1
sp_jj_jm	348	-99	-99	sp_jj_jm	348	False	008a.jpg	4	5	0	008a.jpg	NA	colour_instructions.jpg	1
sp_jj_jm	349	-99	-99	sp_jj_jm	349	False	071a.jpg	4	5	50	071a_50_3.png	NA	colour_instructions.jpg	1
sp_jj_jm	350	-99	-99	sp_jj_jm	350	False	100a.jpg	4	5	50	100a_50_3.png	NA	colour_instructions.jpg	1
sp_jj_jm	351	-99	-99	sp_jj_jm	351	False	063a.jpg	4	5	0	063a.jpg	NA	colour_instructions.jpg	1
sp_jj_jm	352	-99	-99	sp_jj_jm	352	False	021a.jpg	4	5	25	021a_25_3.png	NA	colour_instructions.jpg	1
sp_jj_jm	353	-99	-99	sp_jj_jm	353	False	019b.jpg	4	5	75	019b_75_3.png	NA	colour_instructions.jpg	1
sp_jj_jm	354	-99	-99	sp_jj_jm	354	False	070a.jpg	4	5	0	070a.jpg	3	colour_instructions.jpg	0
sp_jj_jm	355	-99	-99	sp_jj_jm	355	False	040a.jpg	4	5	50	040a_50_3.png	NA	colour_instructions.jpg	1
sp_jj_jm	356	-99	-99	sp_jj_jm	356	False	023b.jpg	5	5	0	023b.jpg	4	colour_instructions.jpg	0
sp_jj_jm	357	-99	-99	sp_jj_jm	357	False	005a.jpg	5	5	50	005a_50_4.png	NA	colour_instructions.jpg	1
sp_jj_jm	358	-99	-99	sp_jj_jm	358	False	014a.jpg	5	5	75	014a_75_4.png	NA	colour_instructions.jpg	1
sp_jj_jm	359	-99	-99	sp_jj_jm	359	False	082b.jpg	5	5	75	082b_75_4.png	NA	colour_instructions.jpg	1
sp_jj_jm	360	-99	-99	sp_jj_jm	360	False	093a.jpg	5	5	50	093a_50_4.png	NA	colour_instructions.jpg	1
sp_jj_jm	361	-99	-99	sp_jj_jm	361	False	050a.jpg	5	5	50	050a_50_4.png	NA	colour_instructions.jpg	1
sp_jj_jm	362	-99	-99	sp_jj_jm	362	False	006a.jpg	5	5	25	006a_25_4.png	NA	colour_instructions.jpg	1
sp_jj_jm	363	-99	-99	sp_jj_jm	363	False	059b.jpg	5	5	25	059b_25_4.png	NA	colour_instructions.jpg	1
sp_jj_jm	364	-99	-99	sp_jj_jm	364	False	013a.jpg	5	5	50	013a_50_4.png	NA	colour_instructions.jpg	1
sp_jj_jm	365	-99	-99	sp_jj_jm	365	False	042a.jpg	5	5	0	042a.jpg	NA	colour_instructions.jpg	1
sp_jj_jm	366	-99	-99	sp_jj_jm	366	False	089b.jpg	5	5	0	089b.jpg	NA	colour_instructions.jpg	1
sp_jj_jm	367	-99	-99	sp_jj_jm	367	False	044b.jpg	5	5	75	044b_75_4.png	NA	colour_instructions.jpg	1
sp_jj_jm	368	-99	-99	sp_jj_jm	368	False	035a.jpg	5	5	25	035a_25_4.png	NA	colour_instructions.jpg	1
sp_jj_jm	369	-99	-99	sp_jj_jm	369	False	077b.jpg	5	5	75	077b_75_4.png	NA	colour_instructions.jpg	1
sp_jj_jm	370	-99	-99	sp_jj_jm	370	False	078a.jpg	5	5	0	078a.jpg	4	colour_instructions.jpg	0
sp_jj_jm	371	-99	-99	sp_jj_jm	371	False	080a.jpg	5	5	25	080a_25_4.png	NA	colour_instructions.jpg	1
sp_jj_jm	372	-99	-99	sp_jj_jm	372	False	012a.jpg	5	5	0	012a.jpg	4	colour_instructions.jpg	0
sp_jj_jm	373	-99	-99	sp_jj_jm	373	False	021a.jpg	5	5	25	021a_25_4.png	NA	colour_instructions.jpg	1
sp_jj_jm	374	-99	-99	sp_jj_jm	374	False	018a.jpg	5	5	50	018a_50_4.png	NA	colour_instructions.jpg	1
sp_jj_jm	375	-99	-99	sp_jj_jm	375	False	071a.jpg	5	5	50	071a_50_4.png	NA	colour_instructions.jpg	1
sp_jj_jm	376	-99	-99	sp_jj_jm	376	False	030a.jpg	5	5	0	030a.jpg	NA	colour_instructions.jpg	1
sp_jj_jm	377	-99	-99	sp_jj_jm	377	False	017b.jpg	5	5	25	017b_25_4.png	NA	colour_instructions.jpg	1
sp_jj_jm	378	-99	-99	sp_jj_jm	378	False	032b.jpg	5	5	50	032b_50_4.png	NA	colour_instructions.jpg	1
sp_jj_jm	379	-99	-99	sp_jj_jm	379	False	076b.jpg	5	5	75	076b_75_4.png	NA	colour_instructions.jpg	1
sp_jj_jm	380	-99	-99	sp_jj_jm	380	False	094b.jpg	5	5	75	094b_75_4.png	NA	colour_instructions.jpg	1
sp_jj_jm	381	-99	-99	sp_jj_jm	381	False	069a.jpg	5	5	25	069a_25_4.png	NA	colour_instructions.jpg	1
sp_jj_jm	382	-99	-99	sp_jj_jm	382	False	037b.jpg	5	5	75	037b_75_4.png	NA	colour_instructions.jpg	1
sp_jj_jm	383	-99	-99	sp_jj_jm	383	False	057b.jpg	5	5	0	057b.jpg	NA	colour_instructions.jpg	1
sp_jj_jm	384	-99	-99	sp_jj_jm	384	False	019b.jpg	5	5	75	019b_75_4.png	NA	colour_instructions.jpg	1
sp_jj_jm	385	-99	-99	sp_jj_jm	385	False	003b.jpg	5	5	0	003b.jpg	NA	colour_instructions.jpg	1
sp_jj_jm	386	-99	-99	sp_jj_jm	386	False	029b.jpg	5	5	50	029b_50_4.png	NA	colour_instructions.jpg	1
sp_jj_jm	387	-99	-99	sp_jj_jm	387	False	033a.jpg	5	5	75	033a_75_4.png	NA	colour_instructions.jpg	1
sp_jj_jm	388	-99	-99	sp_jj_jm	388	False	011b.jpg	5	5	25	011b_25_4.png	NA	colour_instructions.jpg	1
sp_jj_jm	389	-99	-99	sp_jj_jm	389	False	088a.jpg	5	5	25	088a_25_4.png	NA	colour_instructions.jpg	1
sp_jj_jm	390	-99	-99	sp_jj_jm	390	False	027b.jpg	5	5	25	027b_25_4.png	NA	colour_instructions.jpg	1
sp_jj_jm	391	-99	-99	sp_jj_jm	391	False	034b.jpg	5	5	25	034b_25_4.png	NA	colour_instructions.jpg	1
sp_jj_jm	392	-99	-99	sp_jj_jm	392	False	025a.jpg	5	5	25	025a_25_4.png	NA	colour_instructions.jpg	1
sp_jj_jm	393	-99	-99	sp_jj_jm	393	False	060a.jpg	5	5	75	060a_75_4.png	NA	colour_instructions.jpg	1
sp_jj_jm	394	-99	-99	sp_jj_jm	394	False	086b.jpg	5	5	75	086b_75_4.png	NA	colour_instructions.jpg	1
sp_jj_jm	395	-99	-99	sp_jj_jm	395	False	010a.jpg	5	5	0	010a.jpg	NA	colour_instructions.jpg	1
sp_jj_jm	396	-99	-99	sp_jj_jm	396	False	058b.jpg	5	5	25	058b_25_4.png	NA	colour_instructions.jpg	1
sp_jj_jm	397	-99	-99	sp_jj_jm	397	False	045a.jpg	5	5	50	045a_50_4.png	NA	colour_instructions.jpg	1
sp_jj_jm	398	-99	-99	sp_jj_jm	398	False	087b.jpg	5	5	50	087b_50_4.png	NA	colour_instructions.jpg	1
sp_jj_jm	399	-99	-99	sp_jj_jm	399	False	098a.jpg	5	5	0	098a.jpg	NA	colour_instructions.jpg	1
sp_jj_jm	400	-99	-99	sp_jj_jm	400	False	007b.jpg	5	5	0	007b.jpg	NA	colour_instructions.jpg	1
sp_jj_jm	401	-99	-99	sp_jj_jm	401	False	024a.jpg	5	5	0	024a.jpg	NA	colour_instructions.jpg	1
sp_jj_jm	402	-99	-99	sp_jj_jm	402	False	001b.jpg	5	5	75	001b_75_4.png	NA	colour_instructions.jpg	1
sp_jj_jm	403	-99	-99	sp_jj_jm	403	False	039b.jpg	5	5	50	039b_50_4.png	NA	colour_instructions.jpg	1
sp_jj_jm	404	-99	-99	sp_jj_jm	404	False	038a.jpg	5	5	25	038a_25_4.png	NA	colour_instructions.jpg	1
sp_jj_jm	405	-99	-99	sp_jj_jm	405	False	040a.jpg	5	5	50	040a_50_4.png	NA	colour_instructions.jpg	1
sp_jj_jm	406	-99	-99	sp_jj_jm	406	False	015a.jpg	5	5	0	015a.jpg	NA	colour_instructions.jpg	1
sp_jj_jm	407	-99	-99	sp_jj_jm	407	False	031b.jpg	5	5	0	031b.jpg	NA	colour_instructions.jpg	1
sp_jj_jm	408	-99	-99	sp_jj_jm	408	False	092b.jpg	5	5	75	092b_75_4.png	NA	colour_instructions.jpg	1
sp_jj_jm	409	-99	-99	sp_jj_jm	409	False	083a.jpg	5	5	0	083a.jpg	NA	colour_instructions.jpg	1
sp_jj_jm	410	-99	-99	sp_jj_jm	410	False	028a.jpg	5	5	75	028a_75_4.png	NA	colour_instructions.jpg	1
sp_jj_jm	411	-99	-99	sp_jj_jm	411	False	004a.jpg	5	5	25	004a_25_4.png	NA	colour_instructions.jpg	1
sp_jj_jm	412	-99	-99	sp_jj_jm	412	False	063a.jpg	5	5	0	063a.jpg	NA	colour_instructions.jpg	1
sp_jj_jm	413	-99	-99	sp_jj_jm	413	False	056a.jpg	5	5	0	056a.jpg	4	colour_instructions.jpg	0
sp_jj_jm	414	-99	-99	sp_jj_jm	414	False	090b.jpg	5	5	0	090b.jpg	4	colour_instructions.jpg	0
sp_jj_jm	415	-99	-99	sp_jj_jm	415	False	036b.jpg	5	5	0	036b.jpg	NA	colour_instructions.jpg	1
sp_jj_jm	416	-99	-99	sp_jj_jm	416	False	009b.jpg	5	5	50	009b_50_4.png	NA	colour_instructions.jpg	1
sp_jj_jm	417	-99	-99	sp_jj_jm	417	False	099b.jpg	5	5	0	099b.jpg	NA	colour_instructions.jpg	1
sp_jj_jm	418	-99	-99	sp_jj_jm	418	False	096b.jpg	5	5	0	096b.jpg	NA	colour_instructions.jpg	1
sp_jj_jm	419	-99	-99	sp_jj_jm	419	False	008a.jpg	5	5	0	008a.jpg	NA	colour_instructions.jpg	1
sp_jj_jm	420	-99	-99	sp_jj_jm	420	False	002a.jpg	5	5	50	002a_50_4.png	NA	colour_instructions.jpg	1
